Time,Altitude,Altitude_BMP390,Temperature_BMP390,Acceleration_X_BNO085,Acceleration_Y_BNO085,Acceleration_Z_BNO085,Magnetic_X_BNO085,Magnetic_Y_BNO085,Magnetic_Z_BNO085,Gyro_X_BNO085,Gyro_Y_BNO085,Gyro_Z_BNO085,Quaternion_W_BNO085,Quaternion_X_BNO085,Quaternion_Y_BNO085,Quaternion_Z_BNO085,Acceleration_X_ICM20649,Acceleration_Y_ICM20649,Acceleration_Z_ICM20649,Gyro_X_ICM20649,Gyro_Y_ICM20649,Gyro_Z_ICM20649
969.5330806,-1.179999984,146.7245093,16.85470923,-1.55078125,0.53125,9.703125,10.5625,-14.4375,-49.9375,0,0.001953125,0.00390625,0.3208618164,-0.06848144531,0.04986572266,0.9432983398,-0.4022258789,-1.39821377,10.13226143,0.02904441125,0.01918529918,0.01145788701
969.5664139,-0.5839679846,146.7245093,16.85013763,-1.58984375,0.53125,9.70703125,9.375,-13.3125,-51.0625,0,-0.001953125,0,0.3208618164,-0.06854248047,0.04986572266,0.943359375,-0.2873041992,-1.407790576,10.11310781,0.02957733623,0.01438897438,0.004529862305
969.5997472,-2.582453895,146.3478257,16.85013763,-1.58984375,0.49609375,9.703125,9.375,-13.3125,-51.0625,0,0.001953125,0.001953125,0.3208007813,-0.06854248047,0.04986572266,0.943359375,-0.373495459,-1.695094775,10.18014546,0.02771209881,0.01305666194,0.01438897438
969.6330805,-0.7889212347,147.369508,16.85470923,-1.58984375,0.53125,9.70703125,9.6875,-11.875,-49.9375,0,0.001953125,0.001953125,0.3208007813,-0.06854248047,0.04986572266,0.943359375,-0.4692635254,-1.570596289,10.05564697,0.03037672369,0.01758652424,0.01092496203
969.6664138,-1.29856373,147.3758197,16.85470923,-1.58984375,0.53125,9.70703125,8.5625,-12.25,-53.3125,0,0,0,0.3208007813,-0.06854248047,0.04986572266,0.943359375,-0.2202665527,-1.455674609,9.9503021,0.03597243595,0.006128637237,0.007460949679
969.6997471,0.1007445217,146.4435773,16.85928082,-1.58984375,0.53125,9.66796875,8.5625,-12.25,-53.3125,0,0,0,0.3208007813,-0.06854248047,0.04992675781,0.943359375,-0.134075293,-1.187524023,10.15141504,0.02877794876,0.01758652424,0.003996937328
969.7330804,0.457544646,146.628757,16.85470923,-1.58984375,0.53125,9.70703125,10.125,-13.3125,-50.3125,0,0,0,0.3208007813,-0.06854248047,0.04992675781,0.943359375,-0.5363011719,-1.446097803,9.969455713,0.03011026121,0.01065849954,0.004263399817
969.7664137,0.5201045215,146.9991261,16.85470923,-1.58984375,0.49609375,9.6640625,9.75,-14.4375,-52.625,-0.001953125,-0.001953125,-0.00390625,0.3208618164,-0.06854248047,0.04986572266,0.9432983398,-0.2777273926,-0.9768342773,9.509768994,0.01971822415,0.01012557456,0.01705359927
969.799747,-0.7063104631,146.7181888,16.85013763,-1.55078125,0.49609375,9.66796875,9.75,-14.4375,-52.625,-0.00390625,-0.001953125,0.001953125,0.3208618164,-0.06854248047,0.04986572266,0.9432983398,0.06703764648,-0.7278373047,10.11310781,0.03677182342,0.01065849954,0.00186523742
969.8330803,-25.62143419,134.8794753,16.85928082,-2.28125,0.53125,23.8359375,10.0625,-12.25,-50.3125,-0.00390625,-0.001953125,0.001953125,0.3208618164,-0.06854248047,0.04986572266,0.9432983398,-39.17871597,-20.40817495,30.41593789,0.03570597347,0.1556140933,0.0580888225
969.8664136,-1.906622455,150.4287735,16.85470923,4.26953125,0.49609375,69.16015625,10.0625,-12.3125,-51.8125,-0.068359375,-0.0234375,-0.14453125,0.3220825195,-0.06573486328,0.04895019531,0.9431762695,-3.82114585,-16.51041465,96.31394438,0.03703828591,-0.02371516148,-0.2131699908
969.8997469,-0.06598282454,147.369508,16.85470923,-3.16015625,-0.5,75.71484375,10.0625,-12.3125,-51.8125,0.01953125,-0.01953125,-0.162109375,0.3278808594,-0.06317138672,0.04815673828,0.9413452148,-8.839392529,3.581725684,89.95494478,-0.04636447301,-0.005862174748,-0.1961163916
969.9330802,1.935242131,148.2955189,16.85470923,-0.40234375,-0.234375,78.234375,9.3125,-12.25,-51.0625,0.01953125,-0.01953125,-0.162109375,0.3278808594,-0.06317138672,0.04815673828,0.9413452148,-2.786850732,1.924938135,101.6482257,-0.138560494,-0.01412251189,-0.4620459551
969.9664135,5.290919062,148.576481,16.85470923,0.32421875,-1.57421875,78.69921875,10.0625,-13.0625,-52.9375,0.001953125,0.12890625,-0.248046875,0.3330078125,-0.06530761719,0.04870605469,0.9393920898,-1.618480322,5.008669873,98.72729966,-0.2043767287,-0.04929556038,-1.011225144
969.9997468,2.488432839,147.2737574,16.85928082,5.91796875,0.33984375,78.734375,10.0625,-13.0625,-52.9375,-0.03515625,0.09375,-0.82421875,0.350402832,-0.07037353516,0.04797363281,0.9327392578,2.030283008,-9.998186133,96.75447749,0.02344869899,0.02184992406,0.05089433531
970.0330801,4.728357313,147.9251049,16.85928082,1.4375,1.64453125,77.625,11.5,-11.5625,-49.9375,-0.03515625,0.09375,-0.82421875,0.350402832,-0.07037353516,0.04797363281,0.9327392578,4.223371729,37.27293145,117.382919,0.1817274172,-0.06501684721,-0.08899847118
970.0664134,3.2120946,147.7462072,16.85928082,0.2109375,-0.1171875,76.12890625,10.0625,-12.6875,-51.8125,0.046875,-0.05859375,0,0.3507080078,-0.07019042969,0.04797363281,0.9326171875,20.56140386,9.145850342,96.82151514,-0.1971822415,0.1334977068,0.69919757
970.0997467,7.997757587,149.4068378,16.86385242,1.7421875,0.07421875,78.734375,10.0625,-12.6875,-51.8125,0.07421875,-0.0078125,0.49609375,0.3403320313,-0.06848144531,0.05004882813,0.9364624023,-5.410895752,-28.09835068,113.7724629,-0.002931087374,0.1947840791,1.123938777
970.13308,10.13457869,150.3330251,16.85928082,3.12109375,2.6796875,78.46875,10.0625,-12.6875,-51.8125,0.07421875,-0.0078125,0.49609375,0.3403320313,-0.06848144531,0.05004882813,0.9364624023,-5.506663818,6.330269189,106.1301712,0.09326187099,0.2227626404,1.011491607
970.1664133,14.87421929,151.35504,16.85470923,-0.5546875,0.83984375,78.73828125,8.625,-14.75,-52.625,0.205078125,-0.04296875,0.984375,0.3170776367,-0.064453125,0.05541992188,0.9445800781,-0.8236053711,-4.558559961,111.387838,0.02398162397,0.3040336994,0.9118346358
970.1997466,18.5026534,153.2973634,16.86385242,-0.6328125,0.6875,78.734375,8.625,-14.75,-52.625,0.33203125,-0.0234375,0.84765625,0.2963867188,-0.06005859375,0.06353759766,0.9510498047,-1.561019482,-2.997540479,107.5475386,0.04156814821,0.3661194593,0.8124441276
970.2330799,21.05547983,152.7414874,16.85470923,-0.6328125,0.6875,78.734375,8.375,-16.0625,-49.25,0.33203125,-0.0234375,0.84765625,0.2963867188,-0.06005859375,0.06353759766,0.9510498047,-1.810016455,-2.3080104,107.6145762,0.01492189936,0.4535191555,0.7010628074
970.2664132,23.24651735,154.319632,16.86385242,-0.7109375,0.41796875,78.734375,6.1875,-18.25,-50.4375,0.435546875,-0.001953125,0.69921875,0.2791137695,-0.0556640625,0.07421875,0.9557495117,-3.045424512,-1.551442676,105.4406411,-0.006928024702,0.5214670901,0.627252698
970.2997465,28.99637863,155.3358227,16.85470923,-0.74609375,0.2265625,78.734375,6.1875,-18.25,-50.4375,0.52734375,0.029296875,0.578125,0.2653198242,-0.05157470703,0.08703613281,0.9588623047,-0.1244984863,-1.493981836,109.2905174,-0.01811944922,0.6181929734,0.5457151765
970.3330798,32.79943554,156.9143243,16.85928082,-0.78515625,-0.00390625,78.73828125,7.8125,-19.6875,-48.9375,0.52734375,0.029296875,0.578125,0.2653198242,-0.05157470703,0.08703613281,0.9588623047,-2.719813086,-1.493981836,113.5138891,-0.03543951098,0.639776435,0.4785666294
970.3664131,38.74459607,158.5826732,16.868424,-0.6328125,-0.34765625,78.73828125,5.9375,-20,-49.6875,0.62109375,0.056640625,0.462890625,0.2539672852,-0.04760742188,0.1022949219,0.9606323242,2.327164014,-0.7757213379,124.7857905,-0.05409188518,0.6858744455,0.4340673938
970.3997464,45.93326081,160.4366996,16.86385242,-0.90234375,-1.0390625,78.734375,5.9375,-20,-49.6875,0.689453125,0.091796875,0.3984375,0.2446289063,-0.04425048828,0.1195068359,0.9612426758,-0.2873041992,-2.710236279,116.6933889,-0.06448392223,0.7490260553,0.394897408
970.4330797,47.55578297,161.2680964,16.86385242,-0.90234375,-1.49609375,78.734375,7.9375,-22.1875,-46.3125,0.689453125,0.091796875,0.3984375,0.2446289063,-0.04425048828,0.1195068359,0.9612426758,-0.2873041992,-2.844311572,122.1138615,-0.1279019945,0.745029118,0.4567167054
970.466413,57.81898908,164.7021806,16.86385242,-1.09375,-2.30078125,78.73828125,5,-23.875,-47.125,0.708984375,0.138671875,0.416015625,0.2352905273,-0.04168701172,0.1376342773,0.9612426758,1.08217915,-3.007117285,120.5911492,-0.1678713678,0.6962664826,0.487626354
970.4997463,63.04176912,166.461537,16.85470923,-1.16796875,-3.14453125,78.73828125,5,-23.875,-47.125,0.671875,0.197265625,0.47265625,0.224609375,-0.04040527344,0.1555175781,0.9611206055,1.608903516,-0.3639186523,120.1793465,-0.1953170041,0.6770811834,0.524131715
970.5330796,70.27137586,168.0356642,16.85470923,-1.16796875,-3.7578125,78.73828125,5.8125,-25.375,-45.625,0.671875,0.197265625,0.47265625,0.224609375,-0.04040527344,0.1555175781,0.9611206055,2.815581152,-2.39420166,125.3603989,-0.2749892882,0.5904808746,0.5539755137
970.5664129,77.69422574,170.6337394,16.85928082,-1.359375,-4.44921875,78.73828125,4.75,-26.4375,-44.875,0.59375,0.26171875,0.513671875,0.2121582031,-0.04077148438,0.1722412109,0.9610595703,3.79241543,0.373495459,129.9285357,-0.3168238989,0.5454487141,0.4894915915
970.5997462,85.45303623,172.489894,16.85928082,-1.015625,-5.13671875,78.734375,4.75,-26.4375,-44.875,0.486328125,0.33984375,0.408203125,0.2003173828,-0.04364013672,0.1868896484,0.9607543945,4.87459458,-4.357447021,128.4345539,-0.3573261971,0.4401960311,0.3482664725
970.6330795,93.29711985,174.5320365,16.85013763,-0.6328125,-5.94140625,78.73828125,5.9375,-28.625,-43,0.486328125,0.33984375,0.408203125,0.2003173828,-0.04364013672,0.1868896484,0.9607543945,5.267243652,-0.8619125977,121.740366,-0.3767779588,0.3192220613,0.2696600384
970.6664128,99.66681375,176.0174761,16.86385242,-0.328125,-6.171875,78.73828125,5.625,-30,-44.4375,0.333984375,0.396484375,0.287109375,0.1913452148,-0.04937744141,0.1981811523,0.9600219727,1.819593262,-0.2202665527,124.7187529,-0.3621225219,0.209972441,0.1564134808
970.6997461,102.6850475,177.8688586,16.85928082,0.82421875,-6.36328125,78.73828125,5.625,-30,-44.4375,0.15234375,0.40234375,0.1640625,0.1848754883,-0.05725097656,0.2053833008,0.9593505859,3.70622417,1.407790576,121.5296763,-0.3378744355,0.09486064592,0.2182327781
970.7330794,108.9148233,179.7376574,16.86385242,2.625,-6.01953125,78.73828125,6.4375,-31.125,-41.8125,0.15234375,0.40234375,0.1640625,0.1848754883,-0.05725097656,0.2053833008,0.9593505859,4.84586416,2.892195605,125.1401324,-0.3029678495,-0.03304134858,0.2382174648
970.7664127,114.78077,181.403926,16.85013763,3.65625,-6.09375,78.734375,6.375,-29.6875,-43.375,-0.017578125,0.326171875,0.197265625,0.178527832,-0.06451416016,0.2081298828,0.9594726563,5.717353564,-1.235408057,126.9501488,-0.1961163916,-0.128168457,0.2872465627
970.799746,122.8350252,184.1966785,16.86385242,3.6953125,-5.7109375,78.73828125,6.375,-29.6875,-43.375,-0.15625,0.169921875,0.267578125,0.1713256836,-0.06903076172,0.2067260742,0.9608154297,5.477933398,2.643198633,125.9254305,-0.1031209831,-0.2019785663,0.2627320137
970.8330793,131.5123536,186.8888016,16.86385242,3.2734375,-4.640625,78.734375,7.1875,-30.0625,-41.8125,-0.15625,0.169921875,0.267578125,0.1713256836,-0.06903076172,0.2067260742,0.9608154297,4.577713574,-5.592855078,123.5120752,0.02398162397,-0.2176998531,0.2107718284
970.8664126,138.6874229,188.7422638,16.86385242,3.08203125,-4.37109375,78.734375,7.5,-29.0625,-43.6875,-0.259765625,0.044921875,0.232421875,0.1645507813,-0.07055664063,0.2018432617,0.962890625,4.797980127,2.39420166,122.1425919,0.1007228207,-0.3128269616,0.1673384428
970.8997459,149.1562906,192.4666574,16.85928082,3.65625,-4.1015625,78.73828125,7.5,-29.0625,-43.6875,-0.314453125,-0.072265625,0.140625,0.1600952148,-0.07006835938,0.1947631836,0.9651489258,5.104437939,0.07661445313,129.8806517,0.162009193,-0.3400061354,0.07087902195
970.9330792,158.1651817,194.879253,16.868424,2.890625,-3.18359375,78.73828125,7.0625,-27.9375,-42.5625,-0.314453125,-0.072265625,0.140625,0.1600952148,-0.07006835938,0.1947631836,0.9651489258,-4.644751221,6.569689355,127.5439108,0.2235620279,-0.3322787232,0.02078407411
970.9664125,170.4758273,199.1586345,16.86385242,2.125,-1.8046875,78.734375,6.25,-27.875,-45.25,-0.33984375,-0.166015625,0.009765625,0.1591186523,-0.06774902344,0.1860961914,0.9671630859,-0.1436520996,-0.8810662109,128.6356668,0.2169004657,-0.336542123,-0.01918529918
970.9997458,180.7752113,201.8600078,16.86385242,1.55078125,-1.11328125,78.73828125,6.25,-27.875,-45.25,-0.287109375,-0.197265625,-0.052734375,0.1600341797,-0.06457519531,0.1780395508,0.96875,-1.05344873,-3.73495459,120.0931553,0.2307565151,-0.2592680014,-0.06688208463
971.0330791,193.571999,206.142145,16.85928082,1.12890625,-0.00390625,78.73828125,6.6875,-28.625,-43.6875,-0.287109375,-0.197265625,-0.052734375,0.1600341797,-0.06457519531,0.1780395508,0.96875,-2.049436621,-3.993528369,125.8967001,0.1886554419,-0.1460214437,-0.05249311024
971.0664124,206.5485145,210.0534227,16.86385242,0.1328125,0.953125,78.73828125,4.8125,-28.1875,-45.625,-0.16015625,-0.19140625,-0.072265625,0.1622924805,-0.06103515625,0.1721801758,0.9696655273,-4.625597607,-1.666364355,126.1265435,0.174000005,-0.03224196111,-0.0279785613
971.0997458,219.2060562,213.7797817,16.86385242,-1.1328125,1.875,78.73828125,4.8125,-28.1875,-45.625,-0.015625,-0.111328125,-0.037109375,0.1641235352,-0.05822753906,0.1699829102,0.969909668,-2.27927998,-5.181052393,123.129003,0.1113813202,0.05995405992,0.008793262122
971.1330791,230.5698243,216.9432643,16.85928082,-1.62890625,1.64453125,78.73828125,5.875,-27.125,-44.0625,-0.015625,-0.111328125,-0.037109375,0.1641235352,-0.05822753906,0.1699829102,0.969909668,-2.317587207,-3.035847705,116.4826992,0.006128637237,0.1446891313,0.09965697072
971.1664124,243.3752962,221.0450597,16.86385242,-1.58984375,1.3359375,78.73828125,5.1875,-27.875,-45.625,0.134765625,-0.017578125,0.07421875,0.1633911133,-0.05651855469,0.1721191406,0.9697875977,-3.332728711,-3.53384165,121.5584067,-0.0628851473,0.1833261921,0.1652067429
971.1997457,254.6087074,224.1248425,16.86385242,-1.20703125,-0.08203125,78.73828125,5.1875,-27.875,-45.625,0.251953125,0.083984375,0.15625,0.1603393555,-0.05651855469,0.1780395508,0.9692382813,0.3351882324,-0.3639186523,115.151523,-0.1308330819,0.2789862255,0.1942511542
971.233079,268.8906839,228.9710971,16.86385242,-0.90234375,-1.765625,78.73828125,5.1875,-27.875,-43.3125,0.251953125,0.083984375,0.15625,0.1603393555,-0.05651855469,0.1780395508,0.9692382813,2.126051074,1.934514941,114.9312565,-0.05968759744,0.3474670851,0.2291577402
971.2664123,283.3787244,233.3599127,16.87299559,-0.90234375,-3.296875,78.734375,4.125,-30.375,-45.625,0.271484375,0.15234375,0.23046875,0.1552734375,-0.05737304688,0.1853637695,0.9686279297,6.828263135,1.244984863,102.4814079,-0.197448704,0.2531393641,0.2123706034
971.2997456,296.1868333,236.9031868,16.87299559,0.36328125,-4.90625,78.69921875,4.125,-30.375,-45.625,0.1640625,0.16796875,0.20703125,0.1494750977,-0.05938720703,0.1912231445,0.9682617188,6.588842969,-1.331176123,99.38809932,-0.2771209881,0.07514242177,0.1441562063
971.3330789,310.5001963,241.4865301,16.868424,1.28125,-5.09765625,78.69921875,5.3125,-29.625,-42.5625,0.1640625,0.16796875,0.20703125,0.1494750977,-0.05938720703,0.1912231445,0.9682617188,-2.001552588,-4.022258789,112.8339358,-0.2230291029,0.0005329249771,0.1665390553
971.3664122,323.8191908,245.3151781,16.87299559,1.89453125,-4.71484375,78.4296875,4.9375,-30.75,-43.3125,0.013671875,0.150390625,0.140625,0.1447753906,-0.06207275391,0.1934814453,0.9683837891,12.976573,3.122038965,101.284307,-0.1204410448,-0.1798621798,0.09725880832
971.3997455,336.7680078,249.1495908,16.868424,2.23828125,-4.6015625,78.734375,4.9375,-30.75,-43.3125,-0.126953125,0.083984375,0.02734375,0.1426391602,-0.06433105469,0.1918945313,0.9688720703,3.284844678,2.997540479,100.2308583,0.05702297255,-0.256336914,-0.09965697072
971.4330788,349.1762562,252.7940294,16.87299559,2.9296875,-2.9140625,78.23828125,5.3125,-30,-43.3125,-0.126953125,0.083984375,0.02734375,0.1426391602,-0.06433105469,0.1918945313,0.9688720703,4.252102148,2.039859814,100.4319712,0.06395099725,-0.08286983394,-0.09059724611
971.4664121,362.1436476,256.8140009,16.87756717,2.890625,-1.84375,78.31640625,4.875,-29.625,-44.8125,-0.1640625,-0.025390625,-0.09375,0.1438598633,-0.06518554688,0.1880493164,0.9693603516,0.2681505859,8.331821777,83.32779458,0.06874732205,-0.09406125846,-0.2121041409
971.4997454,378.62056,262.428757,16.87756717,2.203125,-1.3046875,78.1171875,4.875,-29.625,-44.8125,-0.126953125,-0.09765625,-0.1796875,0.147644043,-0.06451416016,0.1842651367,0.9696044922,7.680598926,1.13963999,95.89256489,0.2129035284,-0.07274425937,-0.243280252
971.5330787,396.8223408,268.2337802,16.88213874,1.05078125,0.03515625,78.62109375,5.25,-28.5625,-42.5625,-0.126953125,-0.09765625,-0.1796875,0.147644043,-0.06451416016,0.1842651367,0.9696044922,0.6991068848,4.232948535,92.85671719,0.1414915814,-0.03783767337,-0.1913200668
971.566412,413.1630169,272.8219385,16.88213874,0.70703125,-0.234375,78.6171875,4.125,-29.3125,-45.1875,-0.048828125,-0.0859375,-0.23046875,0.1532592773,-0.06359863281,0.1818237305,0.9692382813,6.033388184,1.570596289,91.23823687,0.08553445882,0.02957733623,-0.2102389035
971.5997453,430.3545379,278.165827,16.88671032,-0.6328125,0.6875,78.31640625,4.125,-29.3125,-45.1875,0.033203125,-0.05078125,-0.20703125,0.1588134766,-0.06280517578,0.1812744141,0.9685058594,-3.773261816,-4.721365674,97.64512051,0.02451454895,0.03037672369,-0.1374946441
971.6330786,447.8619382,283.5086592,16.87756717,-1.4375,-0.6171875,77.734375,6.3125,-28.625,-43.6875,0.033203125,-0.05078125,-0.20703125,0.1588134766,-0.06280517578,0.1812744141,0.9685058594,6.732495068,6.263231543,87.27343892,0.008526799634,0.1188422699,-0.0511607978
971.6664119,466.6644919,289.420838,16.87756717,-1.359375,-1.3046875,77.734375,5.3125,-30.75,-45.5625,0.072265625,0.009765625,-0.083984375,0.1622314453,-0.06298828125,0.1827392578,0.9676513672,8.082824805,9.002198242,89.32287554,-0.1071179204,0.1116477827,-0.05649004757
971.6997452,483.8190259,294.301705,16.87756717,-0.36328125,-1.65234375,76.74609375,5.3125,-30.75,-45.5625,0.076171875,0.111328125,-0.025390625,0.1627197266,-0.06524658203,0.1849365234,0.9669799805,3.064578125,-1.666364355,82.08280972,-0.03197549863,0.1907871418,-0.02478101144
971.7330785,500.1428988,299.0892209,16.88213874,0.8984375,-1.65234375,76.6640625,6.75,-29,-43.3125,0.076171875,0.111328125,-0.025390625,0.1627197266,-0.06524658203,0.1849365234,0.9669799805,5.276820459,-0.4692635254,74.86189751,-0.02424808646,0.104719758,-0.05702297255
971.7664118,515.3729291,303.5031119,16.88671032,1.3203125,-1.53515625,76.4765625,6.3125,-28.625,-45.1875,0.052734375,0.064453125,-0.0625,0.1633911133,-0.06750488281,0.1868896484,0.9663696289,2.643198633,2.087743848,83.49060029,-0.04050229826,0.07567534675,-0.1175099575
971.7997451,531.5552633,308.5816952,16.87756717,1.6640625,-2.1484375,73.984375,6.3125,-28.625,-45.1875,0.03125,0.009765625,-0.15625,0.1661987305,-0.06909179688,0.1878662109,0.9655761719,-2.643198633,10.63025537,81.05809141,0.007727412168,0.01572128682,-0.2102389035
971.8330784,549.6543834,314.4119323,16.88213874,2.046875,-2.76171875,73.10546875,6,-29.625,-42.5625,0.03125,0.009765625,-0.15625,0.1661987305,-0.06909179688,0.1878662109,0.9655761719,-0.5554547852,-6.742071875,79.03738521,0.01998468664,0.02264931153,-0.1830597296
971.8664117,568.4821463,320.2424599,16.88671032,-0.09765625,-2.76171875,71.796875,6.75,-29.6875,-44.0625,-0.048828125,0.005859375,-0.16796875,0.1704711914,-0.07000732422,0.1871337891,0.9649047852,-2.068590234,1.407790576,77.81155396,0.1452220563,0.01572128682,-0.2110382909
971.899745,588.9587398,326.7397835,16.87756717,0.5546875,-0.84765625,68.62109375,6.75,-29.6875,-44.0625,-0.037109375,-0.001953125,-0.208984375,0.1751708984,-0.07141113281,0.1858520508,0.9641723633,-7.958326318,8.46589707,67.04722329,0.03304134858,0.01145788701,-0.1961163916
971.9330783,607.7172628,332.1075972,16.88671032,0.515625,1.14453125,65.82421875,7.8125,-27.9375,-42.875,-0.037109375,-0.001953125,-0.208984375,0.1751708984,-0.07141113281,0.1858520508,0.9641723633,2.116474268,-3.428496777,55.373096,0.01891883669,-0.008260337145,-0.2747228257
971.9664116,628.9403777,338.9891692,16.88213874,0.01953125,-0.5390625,61.453125,6.75,-29.6875,-44.875,-0.001953125,0.0546875,-0.201171875,0.1804199219,-0.07238769531,0.185546875,0.9631958008,6.378153223,-9.816226807,55.50717129,0.02131699908,0.04982848536,-0.1668055178
971.9997449,649.7277917,345.2134914,16.87299559,-1.32421875,-1.49609375,39.9296875,6.75,-29.6875,-44.875,0.00390625,-0.0390625,-0.146484375,0.1846313477,-0.07232666016,0.1853637695,0.9624633789,-0.718260498,-3.399766357,35.59699028,-0.05489127264,-0.003996937328,-0.1049862205
972.0330782,671.8983826,352.1966124,16.87299559,-1.0546875,-0.15625,22.26953125,7.875,-30.125,-42.9375,0.00390625,-0.0390625,-0.146484375,0.1846313477,-0.07232666016,0.1853637695,0.9624633789,0.3160346191,-3.313575098,11.32936226,-0.0815375215,-0.02584686139,-0.1175099575
972.0664115,695.1666887,359.466642,16.87756717,-0.82421875,-1.53515625,5.4921875,7.875,-29.4375,-44.8125,-0.00390625,0.068359375,-0.083984375,0.186706543,-0.07397460938,0.1853637695,0.9619140625,6.397306836,-8.66701001,-3.916913916,-0.09246248353,-0.07594180924,-0.1289678445
972.0997448,721.5832027,368.0672338,16.88213874,-0.09765625,0.109375,-4.890625,7.875,-29.4375,-44.8125,-0.048828125,0.146484375,-0.11328125,0.1883544922,-0.07751464844,0.1846313477,0.9614868164,4.156334082,-11.56878242,-12.56477031,-0.0535589602,-0.09033078362,-0.1087166953
972.1330781,746.0694447,375.1609021,16.88213874,-1.1328125,-1.57421875,-10.0234375,8.5625,-29.75,-42.9375,-0.048828125,0.146484375,-0.11328125,0.1883544922,-0.07751464844,0.1846313477,0.9614868164,-7.105990527,-7.038952881,-12.43069502,0.06874732205,-0.007727412168,-0.2467442644
972.1664114,769.0381637,381.878836,16.87756717,-0.2890625,1.22265625,-11.0546875,8.25,-29.0625,-44.8125,-0.087890625,0.0703125,-0.18359375,0.1915893555,-0.07946777344,0.1826782227,0.9610595703,-3.878606689,3.198653418,1.292868896,0.09965697072,-0.1718683051,-0.1617427305
972.1997447,787.316181,386.6113811,16.88671032,0.28515625,2.29296875,-10.59375,8.25,-29.0625,-44.8125,-0.0390625,0.029296875,-0.23828125,0.1970825195,-0.08184814453,0.1809082031,0.9600830078,14.40351719,-2.470816113,-12.06677637,-0.06528330969,0.05036141034,-0.2613997013
972.233078,809.1053726,393.9069389,16.88671032,1.12890625,2.6796875,-9.5625,10.0625,-28.75,-42.5,-0.0390625,0.029296875,-0.23828125,0.1970825195,-0.08184814453,0.1809082031,0.9600830078,1.120486377,-7.029376074,-14.78658945,0.1612098056,-0.1169770325,-0.3541286473
972.4328918,942.2470953,435.3110361,16.83642282,-0.671875,-0.04296875,-11.359375,8.875,-27.625,-44,0.03515625,0.0078125,-0.376953125,0.2040405273,-0.08312988281,0.1802978516,0.9586181641,4.78840332,-5.295974072,-19.43134067,-0.03863706084,-0.08100459652,-0.2997702996
972.623374,1064.978014,472.0944407,16.81813637,0.4765625,0.609375,-11.40234375,11.8125,-27.375,-44.375,-0.013671875,0.03515625,-0.35546875,0.2471313477,-0.09002685547,0.1798095703,0.9478759766,0.7374141113,2.968810059,-9.710881934,-0.009592649588,-0.105252683,-0.3474670851
972.8096361,1182.139423,507.6643564,16.81356474,0.01953125,0.265625,-13.01171875,18.4375,-23.6875,-42.375,-0.001953125,0.029296875,-0.3515625,0.2759399414,-0.09381103516,0.1785888672,0.9397583008,3.256114258,-16.65406675,-17.55428657,0.08713323376,0.02824502379,-0.2963062873
972.989821,1290.84057,540.47012,16.80899312,-1.359375,0.83984375,-13.9296875,19.1875,-24.375,-41.625,-0.01171875,-0.044921875,-0.291015625,0.3087768555,-0.1010131836,0.1760253906,0.9291992188,6.579266162,-15.80173096,-18.7418106,-0.04609801052,0.1116477827,-0.2840490128
973.199748,1416.801209,579.1650385,16.81813637,0.0546875,0.87890625,-13.81640625,22.75,-21.3125,-41.5625,0.021484375,0.05859375,-0.154296875,0.3473510742,-0.1126098633,0.176940918,0.9140014648,3.782838623,-15.12177769,-21.73935107,-0.05888820997,0.1068514579,-0.3320122607
973.357861,1510.172548,607.6485777,16.81356474,-0.05859375,1.4140625,-13.12890625,23.4375,-18.8125,-41.5,0.041015625,0.009765625,-0.228515625,0.3532714844,-0.1132202148,0.1770019531,0.9116210938,-3.112462158,-1.072602344,-20.36029092,-0.005329249771,0.04076876075,-0.2424808646
973.5112109,1600.626676,635.4364453,16.81813637,-0.5546875,-0.9609375,-12.70703125,24.1875,-18.4375,-41.125,-0.05859375,0.01171875,-0.1796875,0.3671264648,-0.1147460938,0.1760864258,0.9061279297,-2.164358301,6.617573389,-13.76187114,0.006128637237,-0.1494854561,-0.2526064391
973.6889045,1702.798078,666.5004887,16.81813637,-0.36328125,1.98828125,-12.24609375,24.5,-17.375,-40.375,0.0625,0.015625,-0.2734375,0.3786010742,-0.1204223633,0.1698608398,0.9018554688,-0.612915625,-2.968810059,-15.63892524,-0.0511607978,0.1513506935,-0.2949739748
973.8208661,1779.393494,690.0606963,16.82270798,-0.86328125,-1.26953125,-11.82421875,26.3125,-15.6875,-39.9375,-0.021484375,-0.001953125,-0.263671875,0.4010620117,-0.1246948242,0.1706542969,0.8913574219,3.179499805,0.01915361328,-8.532934717,-0.01945176166,-0.08286983394,-0.302701387
973.9720998,1861.694799,714.5512913,16.81356474,-0.09765625,0.6484375,-11.515625,26.625,-15.375,-41.0625,-0.068359375,0.005859375,-0.2734375,0.4122314453,-0.1299438477,0.1668701172,0.8861694336,1.704671582,-1.963245361,-11.86566343,-0.00373047484,0.08953139615,-0.2414150146
974.1272366,1944.673791,739.8773187,16.82270798,-0.2890625,0.76171875,-11.171875,27,-15,-42.1875,0.025390625,0.02734375,-0.28125,0.4298095703,-0.1486816406,0.1545410156,0.8770751953,-3.131615771,0.2011129395,-3.160346191,0.139626344,0.02051761162,-0.4588484053
974.3052135,2037.265609,768.018591,16.82270798,1.55078125,0.9140625,-10.79296875,28.625,-10,-42.125,0.0546875,-0.138671875,-0.4296875,0.4505004883,-0.1829223633,0.1379394531,0.8628540039,1.714248389,-1.771709229,-11.31978545,0.0231822365,-0.0255803989,-0.430869844
974.4655981,2117.083647,792.0957925,16.82270798,-1.3984375,0.609375,-10.33203125,28.625,-8.25,-39.875,0.001953125,0.037109375,-0.35546875,0.4857788086,-0.18359375,0.1303710938,0.8446044922,4.510675928,-4.558559961,-12.13381401,-0.004263399817,-0.07167840942,-0.3378744355
974.5718665,2170.550297,808.7489094,16.8272796,-0.328125,0.609375,-9.8671875,29.375,-8.25,-40.25,0.015625,0.0703125,-0.33203125,0.5057373047,-0.1906738281,0.12890625,0.8314208984,7.393294727,5.975927344,-7.977479932,-0.08260337145,0.05702297255,-0.3338774982
974.8038323,2284.936028,843.6892748,16.82270798,-0.01953125,0.30078125,-9.94921875,31.8125,-3.625,-39.8125,0.017578125,-0.013671875,-0.400390625,0.5209960938,-0.1939697266,0.1273193359,0.8214111328,-1.503558643,1.532289062,-8.532934717,0.02637978637,0.0162542118,-0.4247412067
974.9914889,2370.995044,869.328013,16.83185121,-1.0546875,0.76171875,-9.22265625,29.625,-5,-40.9375,-0.01171875,0.001953125,-0.40234375,0.2484130859,-0.8127441406,-0.3828125,0.3621826172,1.924938135,-2.173935107,-11.540052,0.02025114913,0.07141194693,-0.5331914396
975.1758997,2458.35148,896.7317529,16.82270798,-0.13671875,0.6875,-9.06640625,30.8125,1.125,-39.75,0.0234375,0.0546875,-0.56640625,0.2543334961,-0.8076782227,-0.393371582,0.3579711914,-0.1819593262,-8.149862451,-4.357447021,-0.03517304849,0.1223062822,-0.6328484103
975.3493881,2537.643446,920.6981576,16.82270798,-0.5546875,0.53125,-8.4140625,30.75,3.625,-39.375,0,-0.01171875,-0.662109375,0.2778930664,-0.7730102539,-0.4727172852,0.3190917969,5.765237598,-2.863465186,-9.337386475,0.009326187099,-0.02051761162,-0.6962664826
975.5074427,2607.49814,941.8474761,16.8272796,-0.51953125,0.83984375,-8.18359375,30.4375,11.9375,-38.9375,-0.017578125,0.03515625,-0.697265625,0.2789306641,-0.7673339844,-0.4877929688,0.3090209961,-1.513135449,-0.03830722656,-12.29661973,-0.03703828591,0.05728943504,-0.7418315681
975.6850326,2682.904624,964.6410524,16.82270798,-0.44140625,0.265625,-7.83984375,30.375,12.6875,-39.3125,-0.009765625,0.0234375,-0.787109375,0.2829589844,-0.74609375,-0.5344848633,0.278503418,3.476380811,-3.294421484,-3.246537451,-0.001598774931,0.04050229826,-0.7977886907
975.8728628,2760.430612,988.2661563,16.82270798,-0.671875,0.609375,-7.61328125,30.5625,17.6875,-40.375,-0.013671875,0.021484375,-0.82421875,0.2866821289,-0.7083740234,-0.5989990234,0.2392578125,-1.39821377,1.570596289,-7.891288672,0.06208575983,-0.02025114913,-0.8556110507
976.0612459,2837.879697,1012.156108,16.83185121,-0.51953125,0.76171875,-7.61328125,25.1875,22.1875,-40.0625,0,0.046875,-0.884765625,0.2665405273,-0.6792602539,-0.655090332,0.1961669922,-5.688623145,-0.2202665527,-1.790862842,-0.003996937328,-0.0373047484,-0.9568667964
976.2125397,2899.739373,1031.160824,16.8272796,-0.5546875,0.37890625,-7.1484375,20.4375,28.9375,-40.8125,-0.013671875,0.03125,-0.970703125,0.1898193359,-0.6329345703,-0.7414550781,0.1169433594,-0.8236053711,-0.7757213379,-3.82114585,0.02131699908,0.01598774931,-1.074909679
976.3481524,2950.179924,1045.881725,16.8272796,-0.74609375,0.37890625,-7.15234375,16.1875,34.125,-38.9375,-0.037109375,0.005859375,-1.11328125,0.1605224609,-0.5339355469,-0.8270874023,0.07147216797,1.829170068,-3.639186523,-9.873687646,0.05089433531,-0.04210107319,-1.137528364
976.5253646,3019.439072,1067.669254,16.82270798,-0.328125,0.33984375,-6.76953125,11.625,37.1875,-38.625,-0.041015625,0.009765625,-1.111328125,0.1566772461,-0.5114746094,-0.8424682617,0.06420898438,4.299986182,-2.068590234,-8.398859424,-0.04636447301,0.03650536093,-1.146854551
976.731467,3095.743948,1090.621736,16.81813637,-0.51953125,0.49609375,-6.61328125,7.0625,40.25,-38.25,-0.0625,0.0078125,-1.16015625,0.1434326172,-0.4400024414,-0.8853759766,0.0439453125,-2.432508887,3.256114258,-4.96078584,0.04476569808,-0.04316692315,-1.143124076
976.9145601,3160.641115,1110.283041,16.82270798,-0.48046875,0.33984375,-6.34765625,-2.375,43.125,-39.5,-0.05859375,-0.00390625,-1.17578125,0.1226196289,-0.3393554688,-0.932434082,0.01983642578,-1.120486377,-1.963245361,-7.52737002,0.05702297255,-0.02744563632,-1.206808611
977.1442966,3238.412967,1133.844467,16.8272796,-0.51953125,0.265625,-6.19140625,-13.875,43.9375,-40,-0.0390625,0.005859375,-1.232421875,0.09741210938,-0.1040039063,-0.9896850586,-0.01525878906,-0.9576806641,3.208230225,-8.647856396,0.1148453326,-0.01705359927,-1.300070482
977.3768446,3318.067541,1158.682389,16.8272796,-0.36328125,0.03515625,-6,-26.3125,39.6875,-40.1875,-0.048828125,0.001953125,-1.28515625,0.091796875,-0.072265625,-0.992980957,-0.01885986328,-2.183511914,-3.189076611,-7.335833887,0.07460949679,-0.005329249771,-1.378943378
977.5805745,3384.853301,1178.881527,16.81813637,-0.40234375,0.37890625,-5.6171875,-35.4375,36.4375,-39.1875,-0.029296875,-0.021484375,-1.375,0.07141113281,0.06036376953,-0.9951782227,-0.03045654297,-0.4022258789,1.589749902,-7.134720947,0.06181929734,0.01412251189,-1.401859152
977.8218143,3460.322311,1201.765369,16.81813637,-0.36328125,0.2265625,-5.31640625,-42.5,27,-40.875,-0.02734375,-0.03125,-1.45703125,0.05126953125,0.2343139648,-0.969909668,-0.04174804688,3.64876333,1.436520996,-4.395754248,0.0186523742,0.01811944922,-1.45088825
978.0631919,3532.932132,1223.909855,16.80899312,-0.171875,0.30078125,-5.234375,-49.0625,12.75,-41.4375,-0.01171875,-0.04296875,-1.44140625,0.03295898438,0.3723144531,-0.9263916016,-0.04553222656,2.738966699,3.380612744,-2.576160986,0.09272894602,0.03703828591,-1.430370639
978.2750411,3593.04703,1242.070805,16.81813637,-0.59375,0.609375,-5.00390625,-49.9375,-0.5,-39.3125,-0.013671875,-0.02734375,-1.439453125,0.01000976563,0.5347290039,-0.8438110352,-0.04406738281,3.045424512,-2.48039292,-4.252102148,0.1321653943,0.01358958692,-1.443960225
978.4860315,3653.672488,1260.992009,16.80899312,-0.13671875,0.45703125,-4.8125,-46.1875,-10.4375,-39.25,0.01953125,-0.06640625,-1.490234375,0.003295898438,-0.6506958008,0.7581787109,0.04162597656,-1.628057129,-0.6799532715,-4.050989209,0.1209739698,0.07141194693,-1.524964822
978.6916795,3708.359697,1277.284087,16.80899312,-0.44140625,0.33984375,-4.5078125,-37.8125,-25.8125,-39.6875,0.03515625,-0.0546875,-1.50390625,0.03460693359,-0.8455200195,0.5322265625,0.02661132813,-0.1436520996,1.446097803,-3.438073584,0.05755589753,0.0628851473,-1.467142462
978.8281555,3743.650141,1288.105755,16.81813637,-0.36328125,0.1484375,-4.3515625,-26.4375,-31.625,-37.6875,0.0390625,-0.0234375,-1.439453125,0.03729248047,-0.8641967773,0.5012207031,0.02416992188,0.4022258789,0.9768342773,-3.208230225,0.05036141034,0.09192955855,-1.4540858
979.0351489,3796.89412,1304.518521,16.81356474,-0.48046875,0.37890625,-4.27734375,-20.6875,-36.5625,-37.25,0.041015625,0.01953125,-1.46875,0.04144287109,-0.8977661133,0.4380493164,0.01940917969,-0.5171475586,-1.331176123,-4.98951626,0.07167840942,0.08899847118,-1.506312448
979.2732174,3855.212999,1322.217274,16.81356474,-0.2890625,0.72265625,-4.046875,-7.6875,-37.75,-37.125,0.052734375,0.01171875,-1.462890625,0.04907226563,-0.9619140625,0.2689819336,0.00439453125,2.269703174,0.3160346191,-2.729389893,0.04130168573,0.1105819327,-1.516970947
979.7195535,3958.607549,1353.817268,16.80899312,-0.59375,0.33984375,-3.35546875,6.8125,-39.0625,-37.3125,0.076171875,0.017578125,-1.482421875,0.0546875,-0.9906005859,0.1250610352,-0.009338378906,-1.091755957,1.31202251,-5.583278271,-0.0487626354,0.0138560494,-1.369617191
979.9596293,4010.202987,1369.425904,16.80899312,-0.51953125,0.41796875,-3.3203125,34.375,-12.3125,-34.5,0.01171875,0.078125,-1.3671875,0.05596923828,-0.9798583984,-0.1878662109,-0.03839111328,-1.599326709,0.4022258789,-1.34075293,-0.05702297255,0.05409188518,-1.395996978
980.2198751,4062.214014,1385.134168,16.79984985,-0.48046875,0.45703125,-3.1640625,33.125,-7.25,-32.25,0.03125,0.076171875,-1.380859375,0.05090332031,-0.93359375,-0.350769043,-0.05303955078,-1.886630908,1.19710083,-2.50912334,-0.03357427356,0.03410719853,-1.304333881
980.4051747,4097.366063,1395.879003,16.81813637,-0.40234375,0.1484375,-2.96875,35.25,14.3125,-32.0625,-0.0078125,0.087890625,-1.275390625,0.04632568359,-0.862121582,-0.5001831055,-0.06683349609,2.748543506,1.934514941,-3.284844678,-0.04503216056,-0.009592649588,-1.311528369
980.6156132,4135.178956,1407.356167,16.81356474,-0.51953125,0.30078125,-2.7421875,32.9375,16.9375,-30.5625,-0.041015625,0.076171875,-1.28515625,0.03814697266,-0.7914428711,-0.6054077148,-0.07537841797,0.8331821777,0,-2.882618799,-0.0373047484,-0.0442327731,-1.267562058
980.8471713,4176.436108,1420.194885,16.81356474,-0.44140625,0.33984375,-2.6640625,27.25,29.4375,-30.1875,-0.052734375,0.046875,-1.2734375,0.01507568359,-0.6129760742,-0.7850952148,-0.08764648438,-1.034295117,-0.8810662109,0.6320692383,-0.03384073605,-0.0628851473,-1.259035258
981.1560316,4229.448704,1436.513724,16.81356474,-0.59375,0.2265625,-2.4375,6.5625,46.5,-31.0625,-0.0625,0.052734375,-1.23828125,0.01226806641,-0.5880737305,-0.8037719727,-0.08923339844,0.4022258789,-0.2106897461,-3.371035938,-0.006928024702,-0.1127136327,-1.175099575
981.4958863,4279.598733,1451.316757,16.82270798,-0.40234375,0.109375,-2.32421875,3.1875,47.6875,-28.8125,-0.109375,0.0390625,-1.146484375,0.02905273438,0.275390625,0.9556274414,0.1006469727,-0.6320692383,2.116474268,-1.206677637,0.05862174748,-0.07940582159,-1.155114888
981.7603972,4317.612324,1463.255051,16.80899312,-0.2890625,0.07421875,-1.8984375,-17.625,51.375,-27.1875,-0.095703125,-0.0078125,-1.14453125,0.03277587891,0.248046875,0.962890625,0.1010131836,0.9768342773,-1.235408057,-2.691082666,0.05302603522,-0.07647473421,-1.151117951
982.0104437,4350.862059,1473.336564,16.80899312,-0.2109375,0.109375,-1.78125,-30.5625,48.9375,-25.875,-0.087890625,-0.017578125,-1.11328125,0.04888916016,0.1090087891,0.98828125,0.09484863281,-0.6607996582,-1.31202251,-0.3064578125,0.1095160828,-0.0791393591,-1.120741227
982.236557,4379.312158,1482.050165,16.80899312,-0.13671875,0.07421875,-1.78515625,-42.875,41.1875,-25.6875,-0.091796875,-0.12109375,-1.107421875,0.06689453125,-0.02795410156,0.9931640625,0.09136962891,1.886630908,0.1915361328,1.16837041,0.1548147058,-0.04449923559,-1.107684565
982.4574318,4403.347498,1489.087226,16.80899312,-0.25,0.2265625,-1.6328125,-56.4375,28,-22.9375,-0.078125,-0.130859375,-1.095703125,0.09094238281,-0.1647949219,0.9782714844,0.08715820313,2.633621826,0.9097966309,-1.417367383,0.2171669282,-0.03304134858,-1.070646279
982.6537971,4423.019663,1495.097694,16.81356474,-0.40234375,-0.00390625,-1.515625,-60.125,17.625,-21.875,-0.0625,-0.1640625,-1.060546875,0.1115722656,-0.2691040039,0.9534301758,0.07806396484,-0.1532289063,-0.6512228516,-2.62404502,0.2049096537,-0.03277488609,-1.030143981
982.8530846,4442.050292,1500.99556,16.80442149,-0.48046875,0.1484375,-1.40234375,-61.1875,8.375,-19,-0.0546875,-0.16015625,-0.99609375,0.1313476563,-0.3645019531,0.9190673828,0.07171630859,-0.3830722656,0.239420166,0.5267243652,0.1937182292,-0.004263399817,-0.9920398449
983.0279384,4458.928676,1506.358828,16.80899312,-0.48046875,0.1875,-1.359375,-60.625,4.3125,-19.75,-0.02734375,-0.15234375,-0.974609375,0.1494750977,-0.4526367188,0.8766479492,0.06512451172,-0.8427589844,-1.244984863,-1.31202251,0.1790627923,0.01785298673,-0.976318558
983.1978822,4473.618709,1510.714266,16.80899312,-0.36328125,0.30078125,-1.359375,-60.375,-2.125,-19.8125,0.009765625,-0.1484375,-0.96484375,0.1603393555,-0.5153808594,0.8400268555,0.05493164063,-0.9576806641,0.1819593262,-0.4979939453,0.1921194542,0.06155283485,-0.9675252959
983.3683996,4485.520162,1514.067179,16.81356474,-0.171875,0.265625,-1.25,-58.1875,-11.625,-16.5,0.046875,-0.146484375,-0.974609375,0.1760864258,-0.5938720703,0.7839355469,0.04125976563,0.03830722656,-0.9481038574,-0.9959878906,0.1961163916,0.09192955855,-1.010159294
983.5153613,4497.552019,1518.192938,16.80899312,-0.2109375,0.30078125,-1.21484375,-56,-19.1875,-15.75,0.072265625,-0.154296875,-1,0.1889038086,-0.6492919922,0.7360839844,0.03009033203,1.216254443,0.8236053711,-0.9959878906,0.1961163916,0.1356294067,-1.019219019
983.6629212,4509.674943,1521.992606,16.81356474,-0.2109375,0.30078125,-1.171875,-50.5,-27.3125,-13.875,0.1171875,-0.16015625,-0.99609375,0.2022705078,-0.7015991211,0.6830444336,0.01794433594,1.072602344,0.612915625,-1.838746875,0.2043767287,0.1689372177,-0.9971026322
983.8116052,4517.027155,1523.565074,16.81356474,-0.2109375,0.33984375,-1.09375,-45.4375,-31.5,-13.0625,0.154296875,-0.154296875,-0.984375,0.2130126953,-0.7490844727,0.6272583008,0.004577636719,0.3256114258,0.3830722656,-1.244984863,0.1809280297,0.1897212918,-0.9864441326
983.9387646,4524.524091,1526.216109,16.81813637,-0.25,0.30078125,-1.09765625,-37.75,-38.5625,-10.4375,0.18359375,-0.142578125,-0.994140625,0.2345581055,-0.8162841797,0.5275268555,-0.01892089844,0.2202665527,-0.2585737793,-1.015141504,0.1787963298,0.2187657031,-1.003497732
984.0642951,4530.975424,1528.117253,16.81813637,-0.2890625,0.2265625,-1.09375,-32,-42.0625,-8.875,0.1953125,-0.1328125,-0.986328125,0.2387695313,-0.8282470703,0.5063476563,-0.02404785156,-0.3543418457,0.08619125977,-0.7086836914,0.1726676926,0.2307565151,-1.008294057
984.1878362,4537.964303,1530.44135,16.80442149,-0.51953125,0.33984375,-1.05859375,-27.0625,-45.125,-7.25,0.21875,-0.09375,-0.970703125,0.2470092773,-0.8502807617,0.4635009766,-0.03485107422,-0.5267243652,-0.7852981445,-1.101332764,0.1310995444,0.2238284904,-0.9821807328
984.2859859,4542.169331,1531.520401,16.81813637,-0.48046875,0.30078125,-1.05859375,-22.125,-46.0625,-6.4375,0.2265625,-0.04296875,-0.935546875,0.255065918,-0.8786010742,0.4006347656,-0.04956054688,-0.5746083984,0.4979939453,-0.9768342773,0.09192955855,0.2550046015,-0.9403461221
984.3847802,4545.533307,1532.460193,16.8272796,-0.328125,0.30078125,-0.9453125,-15.375,-48.0625,-3.75,0.234375,-0.01953125,-0.92578125,0.2589111328,-0.8944702148,0.3597412109,-0.05914306641,0.2202665527,-0.1532289063,-1.08217915,0.07087902195,0.2637978637,-0.929954085
984.4848964,4549.783579,1533.962271,16.8272796,-0.40234375,0.30078125,-0.9453125,-12.375,-49.25,-2.25,0.240234375,-0.00390625,-0.912109375,0.2633056641,-0.9078979492,0.3185424805,-0.07006835938,-0.9289502441,-0.8140285645,-1.350329736,0.0628851473,0.255803989,-0.9240919103
984.5846348,4555.208044,1535.864907,16.81813637,-0.51953125,0.37890625,-0.94921875,-6.8125,-48.75,-2.1875,0.234375,0.02734375,-0.890625,0.2678222656,-0.9190063477,0.2774658203,-0.08178710938,-0.2585737793,-0.3351882324,-0.4596867188,-0.003996937328,0.2648637136,-0.8931822616
984.6856806,4556.814693,1535.747911,16.82270798,-0.44140625,0.37890625,-0.9453125,-2.3125,-48.125,-0.25,0.236328125,0.0546875,-0.8984375,0.2717285156,-0.9280395508,0.2366333008,-0.09454345703,-0.4118026855,1.05344873,-0.9193734375,-0.02184992406,0.2619326262,-0.9054395361
984.7610087,4558.820956,1536.616212,16.83185121,-0.36328125,0.37890625,-0.94921875,3.5625,-47.6875,1,0.23828125,0.0625,-0.8984375,0.2752075195,-0.9350585938,0.1954956055,-0.108215332,0.5937620117,0.4884171387,-0.5171475586,-0.02078407411,0.2579356889,-0.9139663357
984.8339031,4560.780496,1537.250555,16.83642282,-0.2890625,0.30078125,-0.91015625,7.1875,-46.6875,1.75,0.23828125,0.080078125,-0.90625,0.2767944336,-0.9378662109,0.1746826172,-0.1151123047,-0.3830722656,0.1436520996,-0.7374141113,-0.03117611116,0.2616661638,-0.9115681733
984.9108579,4562.831366,1537.907565,16.83642282,-0.328125,0.30078125,-0.91015625,9.125,-47.125,1.8125,0.232421875,0.08203125,-0.916015625,0.2758178711,-0.9437255859,0.1347045898,-0.1229858398,0.5267243652,-0.134075293,-0.134075293,-0.05089433531,0.255803989,-0.9107687859
984.9837027,4564.267061,1538.285253,16.83642282,-0.44140625,0.37890625,-0.91015625,13.8125,-42.9375,3.75,0.2265625,0.09765625,-0.896484375,0.2750244141,-0.9461669922,0.1146240234,-0.1263427734,0.2968810059,0.4692635254,-0.1149216797,-0.05995405992,0.2598009263,-0.8934487241
985.0588789,4565.712701,1538.753488,16.84099443,-0.59375,0.37890625,-0.94921875,16.8125,-43.8125,5.3125,0.2265625,0.111328125,-0.876953125,0.2746582031,-0.9479370117,0.09454345703,-0.1306152344,1.25456167,-0.7661445312,-0.9289502441,-0.07807350915,0.245411952,-0.8825237621
985.1314282,4566.199764,1538.776143,16.84099443,-0.5546875,0.265625,-0.90625,20.0625,-39.9375,6.875,0.21875,0.146484375,-0.845703125,0.2749023438,-0.9494628906,0.05541992188,-0.1411132813,-0.05746083984,-1.05344873,-0.4213794922,-0.1204410448,0.2280918902,-0.8470842511
985.180526,4565.967327,1538.659069,16.84556603,-0.5546875,0.265625,-0.8671875,21.5,-39.625,8,0.21875,0.146484375,-0.845703125,0.2749633789,-0.9494628906,0.03643798828,-0.1470336914,-0.8714894043,0.5458779785,-0.4501099121,-0.1239050572,0.2408820896,-0.8337611267
985.2284412,4565.885939,1538.681726,16.85013763,-0.48046875,0.265625,-0.90625,23,-39.3125,7.3125,0.212890625,0.1640625,-0.830078125,0.2750244141,-0.9489746094,0.01782226563,-0.1532592773,0.3447650391,0.1244984863,0.3447650391,-0.140159269,0.2222297155,-0.8212373897
985.2771497,4567.327438,1539.410645,16.85470923,-0.51953125,0.2265625,-0.90625,24.4375,-37.875,8.4375,0.20703125,0.169921875,-0.818359375,0.2749633789,-0.9481201172,-0.0004272460938,-0.1596679688,-0.507570752,-0.6320692383,-0.8140285645,-0.1462879062,0.2174333907,-0.8167075274
985.3243914,4568.712242,1539.833668,16.85928082,-0.48046875,0.265625,-0.828125,25.5,-36.125,10.3125,0.197265625,0.177734375,-0.80859375,0.2746582031,-0.9468994141,-0.0185546875,-0.1661987305,0.6607996582,-0.4022258789,-1.16837041,-0.140692194,0.2121041409,-0.7996539281
985.3715804,4569.254864,1539.856355,16.85013763,-0.48046875,0.265625,-0.90625,27.625,-34.0625,10.375,0.185546875,0.1875,-0.798828125,0.2743530273,-0.9453125,-0.03619384766,-0.1727905273,0.746990918,-0.8810662109,-0.2777273926,-0.1660061304,0.1993139414,-0.7924594409
985.4189773,4570.936693,1540.585351,16.85470923,-0.5546875,0.2265625,-0.83203125,27.9375,-31.1875,11.125,0.177734375,0.197265625,-0.787109375,0.2738647461,-0.943359375,-0.05352783203,-0.1795043945,0.3639186523,0.01915361328,-0.4979939453,-0.162542118,0.1758652424,-0.7700765919
985.4673958,4569.845075,1539.761941,16.84556603,-0.48046875,0.1875,-0.87109375,27.9375,-31.1875,11.125,0.1640625,0.203125,-0.76953125,0.2732543945,-0.9411010742,-0.07043457031,-0.1862792969,0.4309562988,-0.3926490723,-0.6895300781,-0.1718683051,0.1822603422,-0.7783369291
985.5145605,4571.099361,1540.585351,16.86385242,-0.48046875,0.1875,-0.87109375,30.8125,-29.5,10.8125,0.154296875,0.2109375,-0.76953125,0.2699584961,-0.9403686523,-0.0859375,-0.1881713867,-0.009576806641,-0.7852981445,-0.2202665527,-0.1875895919,0.1657396679,-0.7823338664
985.5610964,4570.868397,1540.256709,16.85928082,-0.44140625,0.1875,-0.91015625,30.375,-26.625,13.125,0.142578125,0.216796875,-0.763671875,0.2661743164,-0.9397583008,-0.1012573242,-0.1890869141,0.06703764648,0.07661445313,-0.612915625,-0.1857243545,0.1652067429,-0.7719418293
985.5944297,4570.179252,1539.973464,16.85928082,-0.44140625,0.1875,-0.87109375,30.375,-26.625,13.125,0.130859375,0.22265625,-0.76171875,0.2629394531,-0.9383544922,-0.1168212891,-0.1916503906,1.16837041,-0.1532289063,0.6703764648,-0.185990817,0.1529494684,-0.7628821047
985.627763,4571.012037,1540.513647,16.868424,-0.48046875,0.109375,-0.75,32.9375,-24.4375,16.875,0.130859375,0.22265625,-0.76171875,0.2629394531,-0.9383544922,-0.1168212891,-0.1916503906,0.2968810059,-2.097320654,-2.049436621,-0.2017121038,0.1247044446,-0.7575528549
985.6610963,4571.556092,1540.630776,16.868424,-0.328125,0.33984375,-0.90625,32.125,-24.125,14.25,0.125,0.224609375,-0.736328125,0.2601318359,-0.9364624023,-0.1319580078,-0.1949462891,-0.3639186523,-1.149216797,1.25456167,-0.2014456413,0.1425574314,-0.7412986431
985.6944296,4572.81245,1541.148282,16.868424,-0.2890625,0.1875,-0.67578125,32.125,-24.125,14.25,0.115234375,0.224609375,-0.736328125,0.2575073242,-0.9340209961,-0.1473388672,-0.1990356445,0.4884171387,-1.264138477,-0.1628057129,-0.1958499291,0.1676049053,-0.7359693934
985.7277629,4573.325715,1541.171015,16.87756717,-0.51953125,0.33984375,-0.484375,33.25,-22.6875,16.1875,0.115234375,0.224609375,-0.736328125,0.2575073242,-0.9340209961,-0.1473388672,-0.1990356445,-0.2777273926,-0.8906430176,0.4405331055,-0.1817274172,0.1540153184,-0.7492925178
985.7610962,4574.137189,1541.476983,16.87756717,-0.40234375,0.1484375,-0.52734375,34.625,-22,15.4375,0.10546875,0.2265625,-0.734375,0.2549438477,-0.9312133789,-0.1625976563,-0.2034301758,0.4022258789,-1.302445703,-1.063025537,-0.1990474789,0.1268361445,-0.7226462689
985.7944295,4574.67525,1541.594136,16.88213874,-0.40234375,0.33984375,-0.3671875,34.625,-22,15.4375,0.1015625,0.23046875,-0.712890625,0.2524414063,-0.9282226563,-0.1773681641,-0.2080078125,-0.02873041992,0.2585737793,-1.015141504,-0.187056667,0.1204410448,-0.7125206944
985.8277628,4573.369793,1540.865051,16.87756717,-0.44140625,0.265625,-0.3671875,34.25,-20.9375,18.8125,0.1015625,0.23046875,-0.712890625,0.2524414063,-0.9282226563,-0.1773681641,-0.2080078125,-0.05746083984,2.39420166,0.8044517578,-0.1966493165,0.1183093449,-0.6893384579
985.8610961,4573.099964,1540.982197,16.87756717,-0.40234375,0.30078125,-0.33203125,33.8125,-17.6875,16.5625,0.091796875,0.2265625,-0.689453125,0.2500610352,-0.9248046875,-0.1918945313,-0.2128295898,-0.5650315918,0.3160346191,0.02873041992,-0.1849249671,0.1199081198,-0.6744165585
985.8944294,4572.161971,1540.581829,16.87299559,-0.3984375,0.265625,-0.3671875,33.8125,-17.6875,16.5625,0.08984375,0.2265625,-0.662109375,0.2478637695,-0.9213256836,-0.205871582,-0.2177124023,0.2777273926,-0.09576806641,0.3064578125,-0.1905206793,0.1095160828,-0.6483032346
985.9277627,4571.940169,1540.653501,16.88671032,-0.4375,0.265625,-0.33203125,35.625,-16.625,16.625,0.08984375,0.2265625,-0.662109375,0.2478637695,-0.9213256836,-0.205871582,-0.2177124023,0.4884171387,-0.01915361328,0.3160346191,-0.1926523792,0.1033874456,-0.629384398
985.961096,4571.697455,1540.581829,16.88213874,-0.44140625,0.265625,-0.3671875,34.5625,-18.8125,18.0625,0.080078125,0.2265625,-0.634765625,0.2457275391,-0.9177246094,-0.2189941406,-0.2224121094,0.4405331055,-0.02873041992,-0.0478840332,-0.1963828541,0.0977917333,-0.6144624986
985.9944293,4570.918005,1540.253139,16.89128189,-0.51953125,0.265625,-0.33203125,34.5625,-18.8125,18.0625,0.07421875,0.232421875,-0.60546875,0.2437133789,-0.9140625,-0.2313842773,-0.2271118164,-0.08619125977,-0.3160346191,0.1819593262,-0.1990474789,0.09006432113,-0.6067350864
986.0277627,4570.610625,1540.253139,16.87756717,-0.515625,0.265625,-0.3671875,35.9375,-13.75,20.75,0.07421875,0.232421875,-0.60546875,0.2437133789,-0.9140625,-0.2313842773,-0.2271118164,0.105344873,-0.6224924316,0.3447650391,-0.1934517667,0.08473507136,-0.5830199249
986.061096,4570.725316,1540.370278,16.89128189,-0.4765625,0.265625,-0.33203125,34.375,-13.75,19.625,0.0703125,0.232421875,-0.58203125,0.2418212891,-0.91015625,-0.2434692383,-0.2319946289,0.2202665527,-0.5650315918,0.6512228516,-0.1993139414,0.09166309606,-0.5638346258
986.0944293,4569.888616,1539.94719,16.89128189,-0.48046875,0.265625,-0.3671875,34.375,-13.75,19.625,0.06640625,0.23046875,-0.55859375,0.2399902344,-0.9063720703,-0.254699707,-0.2366943359,-0.1915361328,-0.2873041992,-0.478840332,-0.2017121038,0.08713323376,-0.5483798014
986.1277626,4556.246714,1533.485969,16.88671032,-0.2890625,0.30078125,1.27734375,35.0625,-10.875,21.5,0.06640625,0.23046875,-0.55859375,0.2399902344,-0.9063720703,-0.254699707,-0.2366943359,-0.009576806641,-50.23992764,-79.35341982,0.5339908271,-0.4431271185,-0.1684042928
986.1610959,4566.985099,1541.216506,16.89128189,-0.25,0.83984375,50.0390625,35.0625,-10.875,19.625,-0.091796875,0.556640625,-0.419921875,0.2344970703,-0.905456543,-0.2653198242,-0.2340698242,-51.73390947,-20.81040083,35.95133213,-0.1558805558,-0.01998468664,-0.4058223701
986.1944292,4567.602436,1539.52412,16.89585346,-3.54296875,-1.84375,-7.109375,35.0625,-10.875,19.625,0.0078125,0.27734375,-0.517578125,0.2304077148,-0.9041137695,-0.2727050781,-0.2348632813,2.710236279,-5.487510205,5.01824668,-0.3069647868,0.02238284904,-0.5529096637
986.2277625,4567.608221,1539.406999,16.89128189,-0.9375,0.80078125,-0.9453125,35.375,-9.4375,23.0625,0.0078125,0.27734375,-0.517578125,0.2304077148,-0.9041137695,-0.2727050781,-0.2348632813,7.460332373,-1.561019482,-0.2106897461,-0.5537090512,-0.07167840942,-0.5166707653
986.2610958,4566.540505,1538.889547,16.89128189,-0.74609375,0.37890625,0.12890625,35.3125,-7.6875,21.5625,0.001953125,0.265625,-0.564453125,0.2272338867,-0.9006958008,-0.2831420898,-0.2385864258,2.949656445,-2.997540479,-1.034295117,-0.185457892,-0.01065849954,-0.6301837854
986.2944291,4565.737565,1538.700733,16.90042502,-0.74609375,0.37890625,0.12890625,35.3125,-7.6875,21.5625,-0.005859375,0.251953125,-0.59375,0.2272338867,-0.9006958008,-0.2831420898,-0.2385864258,6.177040283,2.652775439,1.091755957,-0.2222297155,-0.01199081198,-0.6112649487
986.3277624,4564.987907,1538.489217,16.89585346,-0.25,-0.234375,-1.17578125,35.625,-5.8125,22.6875,-0.005859375,0.251953125,-0.59375,0.2243652344,-0.8966064453,-0.294128418,-0.243347168,25.11038701,-16.97967817,-0.8906430176,-0.116177645,0.03543951098,-0.6427075224
986.3610957,4564.017005,1538.160605,16.89585346,-0.25,0.37890625,-0.484375,34.875,-5.4375,22.3125,-0.025390625,0.2265625,-0.625,0.2212524414,-0.8919067383,-0.3059692383,-0.2490234375,3.744531396,-0.0478840332,-0.4692635254,-0.1737335425,0.01225727447,-0.6086003238
986.394429,4564.465718,1538.560928,16.89128189,-0.328125,0.109375,-0.671875,34.875,-5.4375,22.3125,-0.044921875,0.220703125,-0.640625,0.2176513672,-0.8868408203,-0.3181152344,-0.254699707,-0.5746083984,1.28329209,-1.25456167,-0.2049096537,-0.0418346107,-0.6400428975
986.4277623,4562.884625,1537.714927,16.90042502,-0.8984375,-0.2734375,-0.71484375,34.8125,-3.625,24.5625,-0.044921875,0.220703125,-0.640625,0.2176513672,-0.8868408203,-0.3181152344,-0.254699707,-0.612915625,3.639186523,-8.676586816,-0.2331546775,-0.09672588334,-0.6824104332
986.4610956,4561.448504,1537.31462,16.89128189,-0.2890625,0.109375,-0.91015625,34.75,-1.8125,23.8125,-0.072265625,0.20703125,-0.662109375,0.2134399414,-0.8815307617,-0.3305053711,-0.2609863281,-1.13963999,1.905784521,0.2106897461,-0.1255038321,-0.04503216056,-0.6848085956
986.4944289,4559.97144,1536.868996,16.88671032,5.34375,3.63671875,-8.90625,34.75,-1.8125,23.8125,-0.322265625,0.15234375,-0.73046875,0.2086181641,-0.8758544922,-0.3434448242,-0.2673339844,191.3350199,178.4446381,-101.0257333,-0.7857978787,1.271825458,-0.394897408
986.5277622,4561.821852,1538.04351,16.89128189,-4.73046875,-1.57421875,-9.83203125,34.6875,0,25.8125,-0.322265625,0.15234375,-0.73046875,0.2086181641,-0.8758544922,-0.3434448242,-0.2673339844,91.5830019,20.97320654,-35.88429448,0.1532159309,-0.2368851523,-0.9518040091
986.5610955,4560.765985,1537.197544,16.88671032,2.81640625,1.14453125,-13.9296875,34.625,0.3125,22.75,-0.046875,-0.2890625,-0.875,0.1996459961,-0.8707885742,-0.3608398438,-0.2677001953,-31.26827368,51.14014746,-14.69082139,0.7698101294,0.664290984,-0.6546983344
986.5944288,4561.651728,1537.832012,16.89585346,13.84765625,9.6484375,-22.2421875,34.625,0.3125,22.75,0.236328125,-1.0625,-0.70703125,0.1900024414,-0.8692626953,-0.3812866211,-0.2507324219,-11.71243452,32.49410493,-26.20214297,1.526563597,0.3759785713,-0.6160612735
986.6277621,4564.391597,1539.00666,16.88671032,14.57421875,12.7890625,-20.01953125,35.25,3.5625,22.375,0.236328125,-1.0625,-0.70703125,0.1900024414,-0.8692626953,-0.3812866211,-0.2507324219,-15.95495986,6.167463477,-5.238513232,2.152483983,1.200147048,-0.5182695402
986.6610954,4568.906898,1540.698978,16.89585346,11.51171875,13.6328125,-15.84765625,38.1875,3.75,17.1875,1.13671875,-1.97265625,-0.552734375,0.1878662109,-0.8700561523,-0.4072875977,-0.2044677734,-16.85517969,8.159439258,-11.31978545,2.373114923,1.765047524,-0.3069647868
986.6944287,4576.920294,1543.755609,16.90499658,5.41796875,12.83203125,-11.32421875,38.1875,3.75,17.1875,2.01171875,-2.404296875,-0.22265625,0.1989135742,-0.8690795898,-0.4323730469,-0.1350708008,-13.15853232,-2.020706201,-9.557653027,2.567099615,2.416281846,-0.07087902195
986.727762,4599.005928,1552.976638,16.90042502,0.2109375,12.48828125,-9.71484375,40.125,8.3125,12.75,2.01171875,-2.404296875,-0.22265625,0.1989135742,-0.8690795898,-0.4323730469,-0.1350708008,-11.01332764,-11.81777939,-12.8329209,2.457317069,2.89857895,0.2182327781
986.7610953,4627.115071,1562.51254,16.89585346,-12.4296875,5.3984375,-7.6875,41.1875,8.25,3.375,2.84765625,-2.373046875,0.16796875,0.2256469727,-0.862487793,-0.4501953125,-0.04986572266,-2.087743848,-16.89348691,-5.592855078,2.185791794,3.190621838,0.5531761262
986.7944286,4664.358519,1575.35878,16.89585346,-20.4765625,1.8359375,-7.83984375,41.1875,8.25,3.375,3.279296875,-1.81640625,0.822265625,0.2556152344,-0.8547363281,-0.450012207,0.03985595703,-2.758120313,-35.49164541,-4.663904834,1.458615662,3.42644114,1.243047509
986.8277619,4692.72379,1582.224537,16.89128189,-30.28125,-0.84765625,-9.79296875,43.6875,8.8125,-0.375,3.279296875,-1.81640625,0.822265625,0.2556152344,-0.8547363281,-0.450012207,0.03985595703,2.250549561,-33.3081335,-12.55519351,0.6728177836,3.448823989,2.136496233
986.8610952,4702.379653,1581.681696,16.89585346,-45.37890625,-8.46875,-13.73828125,41.625,2.0625,-3.8125,3.39453125,-0.576171875,2.08203125,0.2933349609,-0.8537597656,-0.4143676758,0.1153564453,3.76368501,-51.75306309,-6.742071875,-1.04826343,3.106153229,3.974820942
986.8944285,4707.814544,1582.554997,16.90042502,-43.84375,-11.83984375,-8.296875,41.625,2.0625,-3.8125,3.1328125,1.4140625,4.54296875,0.3350830078,-0.8734741211,-0.3146972656,0.1602783203,12.58392393,-28.71126631,-0.2202665527,-1.725344613,3.13732934,5.427307967
986.9277618,4695.597398,1575.665432,16.89585346,-31.2734375,-8.23828125,-0.40625,41.75,-7.6875,1,3.1328125,1.4140625,4.54296875,0.3350830078,-0.8734741211,-0.3146972656,0.1602783203,7.220912207,-36.17159868,-0.373495459,-2.315559025,3.551145585,6.536857769
986.9610951,4678.849349,1569.841106,16.89585346,-35.91796875,-5.7890625,0.93359375,37.5,-21.5,7.25,3.490234375,2.177734375,6.310546875,0.377746582,-0.8934326172,-0.1481933594,0.1928100586,3.246537451,-26.19256616,5.420472559,-2.543117991,3.975886792,6.793461146
986.9944284,4658.393726,1563.054196,16.89585346,-29.32421875,-2.30078125,3.76953125,37.5,-21.5,7.25,4.31640625,2.44921875,6.703125,0.4208374023,-0.8807983398,0.04766845703,0.2118530273,-0.3926490723,-28.83576479,3.399766357,-2.470107269,4.752358483,7.011693924
987.0277617,4645.059507,1560.392684,16.89128189,-28.6328125,0.49609375,4.03515625,25.375,-29.5625,19.375,4.31640625,2.44921875,6.703125,0.4208374023,-0.8807983398,0.04766845703,0.2118530273,-4.750096094,-25.05292617,4.778826514,-2.211372192,5.508845488,7.155317205
987.061095,4622.874581,1552.129431,16.89585346,-27.328125,4.32421875,5.109375,9.9375,-31.8125,28.625,5.427734375,2.1796875,6.939453125,0.46875,-0.8165283203,0.254699707,0.2207641602,-1.388636963,-17.28613599,5.276820459,-1.582254257,6.026582104,7.404459632
987.0944283,4602.340713,1546.295341,16.88671032,-19.25,2.71484375,7.7890625,9.9375,-31.8125,28.625,6.263671875,0.962890625,7.357421875,0.5253295898,-0.688293457,0.4440917969,0.2303466797,2.3080104,-13.59906543,5.391742139,-0.3546615723,6.329816415,7.706894556
987.1277616,4593.826411,1545.966411,16.89128189,-13.69921875,-3.10546875,8.90234375,-3.5,-23.25,44.3125,6.263671875,0.962890625,7.357421875,0.5253295898,-0.688293457,0.4440917969,0.2303466797,3.878606689,-9.299079248,7.259219434,1.119142452,6.139029274,8.012793493
987.1610949,4593.844839,1547.54255,16.89128189,-15.1875,-6.82421875,7.3671875,-11.4375,-7.5,45.875,6.203125,-0.822265625,7.75,0.577331543,-0.4990844727,0.5928344727,0.2572631836,4.156334082,-14.14494341,4.338293408,2.073611086,5.447292653,8.303770531
987.1944282,4596.342321,1548.741302,16.87756717,-15.1875,-6.82421875,7.3671875,-11.4375,-7.5,45.875,5.111328125,-2.42578125,8.23828125,0.606262207,-0.2756958008,0.6796264648,0.3076171875,10.2376063,-15.55273398,2.968810059,2.912435,4.583687728,8.580891519
987.2277615,4593.366459,1546.835972,16.88671032,-20.8984375,-7.3984375,3.421875,-6.375,6.0625,47.875,5.111328125,-2.42578125,8.23828125,0.606262207,-0.2756958008,0.6796264648,0.3076171875,7.738059766,-23.33867778,1.043871924,3.31292812,3.088833167,8.731176362
987.2610948,4595.69189,1548.506664,16.89128189,-23.5390625,-4.5625,1.4296875,3.75,9.25,44.3125,3.322265625,-3.248046875,8.630859375,0.6024169922,-0.04071044922,0.6997680664,0.3818359375,-0.1149216797,-23.7887877,-2.164358301,3.227926586,2.029378313,8.731176362
987.2944281,4592.449293,1546.507013,16.89128189,-26.14453125,1.56640625,-1.94140625,3.75,9.25,44.3125,1.63671875,-3.041015625,8.603515625,0.5624389648,0.1705322266,0.6610107422,0.4664916992,-6.876147168,-28.4048085,-3.026270898,2.641176187,0.9845788952,8.707194738
987.3277614,4594.032954,1547.871542,16.88671032,-25.26953125,6.66015625,-4.8125,14.5625,6.625,42.5,1.63671875,-3.041015625,8.603515625,0.5624389648,0.1705322266,0.6610107422,0.4664916992,-8.293514551,-20.85828486,-3.84987627,2.056024562,0.5334579021,8.492425973